File: pyfaults/tutorials/files/expt_XRD.txt
0.5 879.262
0.533947 1027.87
0.567894 1092.34
0.601841 934.699
0.635787 795.698
0.669734 739.192
0.703681 659.218
0.737628 642.552
0.771575 582.324
0.805522 532.306
0.839469 582.076
0.873416 531.92
0.907362 524.899
0.941309 501.023
0.975256 495.55
1.009203 464.905
1.04315 432.268
1.077097 418.2551
1.111044 437.487
1.144991 348.096
1.178937 376.951
1.212884 368.939
1.246831 326.47
1.280778 299.724
1.314725 330.931
1.348672 306.767
1.382619 330.153
1.416566 308.641
1.450513 307.434
1.484459 309.853
1.518406 313.722
1.552353 311.681
1.5863 273.931
1.620247 318.604
1.654194 297.798
1.688141 290.345
1.722088 285.313
1.756034 329.367
1.789981 290.219
1.823928 309.402
1.857875 272.275
1.891822 247.953
1.925769 260.972
1.959716 257.031
1.993663 267.085
2.027609 242.678
2.061556 252.394
2.095503 271.752
2.12945 230.548
2.163397 207.309
2.197344 221.288
2.231291 235.145
2.265238 257.643
2.299184 211.276
2.333131 224.549
2.367078 213.62
2.401025 177.842
2.434972 202.635
2.468919 209.786
2.502866 207.282
2.536813 229.134
2.570759 221.688
2.604706 177.91
2.638653 217.614
2.6726 212.417
2.706547 198.514
2.740494 197.752
2.774441 216.522
2.808388 205.291
2.842334 197.233
2.876281 184.301
2.910228 208.047
2.944175 215.136
2.978122 211.11
3.012069 210.068
3.046016 228.128
3.079963 197.854
3.113909 198.65
3.147856 231.745
3.181803 237.505
3.21575 528.164
3.249697 225.004
3.283644 205.878
3.317591 212.358
3.351538 210.173
3.385484 206.361
3.419431 202.558
3.453378 223.462
3.487325 217.869
3.521272 206.403
3.555219 206.811
3.589166 229.654
3.623113 225.342
3.657059 241.605
3.691006 234.708
3.724953 265.558
3.7589 236.76
3.792847 216.515
3.826794 254.796
3.860741 191.607
3.894688 232.973
3.928634 254.661
3.962581 250.318
3.996528 249.377
4.030475 298.792
4.064422 247.72
4.098369 256.284
4.132316 242.155
4.166263 261.551
4.200209 316.501
4.234156 287.434
4.268103 337.463
4.30205 319.945
4.335997 412.146
4.369944 1596.53
4.403891 950.557
4.437838 376.929
4.471784 376.186
4.505731 341.995
4.539678 297.236
4.573625 291.435
4.607572 312.896
4.641519 317.473
4.675466 347.318
4.709413 401.881
4.743359 650.855
4.777306 2011.99
4.811253 956.736
4.8452 855.437
4.879147 802.604
4.913094 814.931
4.947041 890.906
4.980988 1710.99
5.014934 851.559
5.048881 693.542
5.082828 649.294
5.116775 596.298
5.150722 592.934
5.184669 590.31
5.218616 610.147
5.252563 556.129
5.286509 576.799
5.320456 554.219
5.354403 555.991
5.38835 549.861
5.422297 599.77
5.456244 591.891
5.490191 664.606
5.524138 731.802
5.558084 1282.24
5.592031 760.755
5.625978 628.738
5.659925 581.418
5.693872 583.494
5.727819 554.408
5.761766 552.637
5.795713 518.489
5.829659 501.267
5.863606 542.594
5.897553 550.014
5.9315 539.369
5.965447 488.816
5.999394 514.172
6.033341 510.812
6.067288 527.087
6.101234 568.586
6.135181 533.539
6.169128 526.809
6.203075 540.704
6.237022 530.942
6.270969 560.977
6.304916 498.293
6.338863 544.771
6.372809 531.747
6.406756 577.762
6.440703 638.187
6.47465 1152.81
6.508597 748.306
6.542544 534.914
6.576491 514.103
6.610438 514.861
6.644384 476.196
6.678331 484.738
6.712278 472.233
6.746225 485.615
6.780172 485.84
6.814119 466.562
6.848066 436.745
6.882013 450.508
6.915959 455.696
6.949906 432.478
6.983853 433.5
7.0178 443.313
7.051747 442.081
7.085694 433.119
7.119641 431.779
7.153588 407.797
7.187534 414.461
7.221481 419.289
7.255428 394.295
7.289375 394.336
7.323322 402.875
7.357269 414.79
7.391216 1368.62
7.425163 405.734
7.459109 388.571
7.493056 369.063
7.527003 420.754
7.56095 460.789
7.594897 424.442
7.628844 388.476
7.662791 363.154
7.696738 338.905
7.730684 341.925
7.764631 343.98
7.798578 344.272
7.832525 303.103
7.866472 331.041
7.900419 312.633
7.934366 308.497
7.968313 317.72
8.002259 318.525
8.036206 303.12
8.070153 308.152
8.1041 330.814
8.138047 309.388
8.171994 320.668
8.205941 311.248
8.239888 306.404
8.273834 302.27
8.307781 365.884
8.341728 617.091
8.375675 1358.52
8.409622 573.593
8.443569 500.081
8.477516 344.135
8.511463 335.882
8.545409 334.923
8.579356 381.379
8.613303 422.978
8.64725 458.954
8.681197 737.013
8.715144 1940.1
8.749091 27202.4
8.783038 5189.45
8.816984 1171.89
8.850931 2089.67
8.884878 776.565
8.918825 398.758
8.952772 333.064
8.986719 348.634
9.020666 321.419
9.054613 304.645
9.088559 285.199
9.122506 274.239
9.156453 292.076
9.1904 281.356
9.224347 267.382
9.258294 322.572
9.292241 272.805
9.326188 265.086
9.360134 256.862
9.394081 247.198
9.428028 256.705
9.461975 271.622
9.495922 263.587
9.529869 309.182
9.563816 307.713
9.597763 293.934
9.631709 291.702
9.665656 297.524
9.699603 291.656
9.73355 286.152
9.767497 337.59
9.801444 296.376
9.835391 327.023
9.869338 337.391
9.903284 418.696
9.937231 510.744
9.971178 1562.95
10.0051 1157.09
10.0391 1788.89
10.073 5993.51
10.107 13764.3
10.1409 11878
10.1749 3693.14
10.2088 2391.52
10.2428 1405.09
10.2767 822.179
10.3106 404.653
10.3446 342.43
10.3785 332.108
10.4125 308.719
10.4464 328.051
10.4804 345.785
10.5143 428.1
10.5483 312.335
10.5822 317.707
10.6162 311.001
10.6501 265.262
10.6841 254.578
10.718 242.352
10.752 239.912
10.7859 240.335
10.81985 260.685
10.8538 235.86
10.8877 248.708
10.9217 243.554
10.9556 240.234
10.9896 244.957
11.0235 291.102
11.0575 255.168
11.0914 273.447
11.1254 354.339
11.1593 283.346
11.1933 229.039
11.2272 232.262
11.2612 229.06
11.2951 217.616
11.3291 249.339
11.363 212.205
11.3969 202.283
11.4309 211.015
11.4648 224.475
11.4988 214.966
11.5327 223.811
11.5667 209.269
11.6006 210.522
11.6346 215.96
11.6685 196.345
11.7025 213.312
11.7364 222.708
11.7704 203.511
11.8043 216.43
11.8383 225.857
11.8722 231.502
11.90615 221.783
11.9401 227.1915
11.974 236.391
12.008 227.609
12.0419 265.216
12.0759 226.382
12.1098 234.137
12.1438 248.686
12.1777 214.869
12.2117 208.898
12.2456 216.558
12.2796 210.008
12.3135 311.628
12.3475 225.816
12.3814 202.266
12.4154 207.061
12.4493 229.476
12.4832 211.223
12.5172 216.901
12.5511 217.172
12.5851 317.92
12.619 351.615
12.653 341.513
12.6869 359.082
12.7209 385.657
12.7548 305.714
12.7888 280.768
12.8227 267.67
12.8567 288.341
12.8906 324.342
12.9246 388.701
12.9585 396.439
12.99245 415.513
13.0264 349.156
13.0603 333.718
13.0943 403.781
13.1282 529.443
13.1622 921.876
13.1961 622.295
13.2301 365.207
13.264 320.276
13.298 371.827
13.3319 343.213
13.3659 283.094
13.3998 284.627
13.4338 269.135
13.4677 278.9668
13.5017 279.899
13.5356 259.0045
13.5695 281.681
13.6035 237.55
13.6374 247.284
13.6714 265.009
13.7053 319.016
13.7393 246.036
13.7732 268.215
13.8072 262.055
13.8411 290.083
13.8751 306.124
13.909 340.377
13.943 401.844
13.9769 394.925
14.0109 666.539
14.0448 344.243
14.07875 358.327
14.1127 339.725
14.1466 385.549
14.1806 455.633
14.2145 611.602
14.2485 1171.39
14.2824 4802.96
14.3164 9172.7
14.3503 4841.26
14.3843 1524.48
14.4182 876.578
14.4522 748.756
14.4861 925.19
14.5201 720.105
14.554 369.366
14.588 352.165
14.6219 312.2
14.6558 274.386
14.6898 284.805
14.7237 264.321
14.7577 244.916
14.7916 267.448
14.8256 256.494
14.8595 259.603
14.8935 306.559
14.9274 475.983
14.9614 819.458
14.9953 784.995
15.0293 340.668
15.0632 269.593
15.0972 234.993
15.1311 270.482
15.16505 256.271
15.199 250.589
15.2329 262.683
15.2669 251.89
15.3008 268.456
15.3348 239.732
15.3687 240.167
15.4027 234.427
15.4366 232.472
15.4706 239.26
15.5045 216.573
15.5385 220.961
15.5724 230.394
15.6064 238.089
15.6403 222.535
15.6743 213.149
15.7082 215.759
15.7421 225.809
15.7761 206.839
15.81 216.803
15.844 213.78
15.8779 206.8265
15.9119 211.177
15.9458 218.748
15.9798 219.411
16.0137 240.293
16.0477 241.833
16.0816 227.895
16.1156 237.434
16.1495 223.288
16.1835 259.076
16.2174 239.9
16.25135 261.473
16.2853 266.732
16.3192 226.383
16.3532 229.816
16.3871 229.384
16.4211 257.136
16.455 245.652
16.489 260.155
16.5229 220.99
16.5569 271.274
16.5908 369.106
16.6248 344.128
16.6587 593.293
16.6927 416.532
16.7266 688.114
16.7606 1220.13
16.7945 2034.14
16.8284 2774.65
16.8624 1132.06
16.8963 592.813
16.9303 539.365
16.9642 495.29
16.9982 516.893
17.0321 502.956
17.0661 387.479
17.1 275.185
17.134 284.707
17.1679 286.568
17.2019 396.342
17.2358 433.469
17.2698 419.371
17.3037 379.026
17.33765 363.779
17.3716 339.664
17.4055 367.852
17.4395 398.919
17.4734 488.442
17.5074 868.484
17.5413 3181.05
17.5753 1672.52
17.6092 1291.64
17.6432 469.741
17.6771 384.951
17.7111 351.157
17.745 483.271
17.779 474.118
17.8129 342.371
17.8469 271.437
17.8808 261.174
17.9147 243.706
17.9487 263.933
17.9826 276.608
18.0166 262.174
18.0505 286.036
18.0845 305.787
18.1184 572.17
18.1524 394.238
18.1863 332.68
18.2203 274.66
18.2542 253.817
18.2882 222.709
18.3221 258.178
18.3561 239.235
18.39 232.604
18.42395 219.22
18.4579 227.622
18.4918 235.928
18.5258 215.504
18.5597 214.114
18.5937 247.394
18.6276 213.392
18.6616 210.081
18.6955 219.996
18.7295 214.403
18.7634 237.741
18.7974 228.501
18.8313 206.356
18.8653 204.281
18.8992 215.681
18.9332 228.744
18.9671 187.308
19.001 223.204
19.035 213.892
19.0689 226.213
19.1029 271.231
19.1368 311.596
19.1708 348.955
19.2047 247.719
19.2387 228.237
19.2726 280.31
19.3066 258.529
19.3405 248.593
19.3745 233.016
19.4084 271.044
19.4424 256.167
19.4763 429.385
19.51025 323.009
19.5442 235.257
19.5781 225.778
19.6121 236.717
19.646 247.575
19.68 244.101
19.7139 220.665
19.7479 212.072
19.7818 241.375
19.8158 217.809
19.8497 203.664
19.8837 209.365
19.9176 212.347
19.9516 236.094
19.9855 215.212
20.0195 258.694
20.0534 238.65
20.0873 253.746
20.1213 251.997
20.1552 283.298
20.1892 327.251
20.2231 453.149
20.2571 442.334
20.291 757.748
20.325 841.414
20.3589 1423.84
20.3929 480.266
20.4268 372.606
20.4608 363.485
20.4947 314.129
20.5287 309.092
20.5626 288.403
20.59655 263.731
20.6305 241.26
20.6644 225.425
20.6984 225.609
20.7323 227.072
20.7663 238.882
20.8002 219.124
20.8342 238.252
20.8681 228.22
20.9021 239.99
20.936 209.968
20.97 209.577
21.0039 235.536
21.0379 229.896
21.0718 256.53
21.1058 233.1
21.1397 232.116
21.1736 228.41
21.2076 236.386
21.2415 244.549
21.2755 244.13
21.3094 263.152
21.3434 246.541
21.3773 250.048
21.4113 251.801
21.4452 244.069
21.4792 241.736
21.5131 255.977
21.5471 240.661
21.581 251.57
21.615 261.12
21.6489 273.35
21.68285 265.746
21.7168 248.838
21.7507 264.019
21.7847 253.684
21.8186 283.114
21.8526 243.664
21.8865 259.84
21.9205 290.747
21.9544 340.284
21.9884 341.114
22.0223 368.421
22.0563 450.418
22.0902 553.317
22.1242 885.705
22.1581 823.535
22.1921 605.983
22.226 383.871
22.2599 339.567
22.2939 313.357
22.3278 338.816
22.3618 321.246
22.3957 316.232
22.4297 369.799
22.4636 340.906
22.4976 300.174
22.5315 352.815
22.5655 340.606
22.5994 441.759
22.6334 818.865
22.6673 914.416
22.7013 1319.52
22.7352 1720.66
22.76915 1742.39
22.8031 879.676
22.837 532.442
22.871 405.405
22.9049 386.254
22.9389 391.77
22.9728 396.423
23.0068 355.49
23.0407 364.655
23.0747 348.944
23.1086 316.515
23.1426 335.711
23.1765 349.103
23.2105 330.149
23.2444 304.283
23.2784 306.793
23.3123 258.332
23.3462 246.545
23.3802 250.896
23.4141 248.28
23.4481 233.642
23.482 234.915
23.516 240.437
23.5499 233.102
23.5839 266.805
23.6178 236.528
23.6518 253.354
23.6857 214.539
23.7197 246.315
23.7536 220.237
23.7876 246.156
23.8215 279.268
23.85545 249.04
23.8894 224.983
23.9233 223.047
23.9573 235.542
23.9912 250.305
24.0252 245.249
24.0591 242.936
24.0931 243.674
24.127 245.039
24.161 245.705
24.1949 272.399
24.2289 307.78
24.2628 317.584
24.2968 315.717
24.3307 279.068
24.3647 254.662
24.3986 257.116
24.4325 248.74
24.4665 236.628
24.5004 236.54
24.5344 234.526
24.5683 232.372
24.6023 253.541
24.6362 235.839
24.6702 247.324
24.7041 259.409
24.7381 278.105
24.772 299.752
24.806 330.41
24.8399 460.537
24.8739 980.225
24.9078 1186.96
24.94175 1272.42
24.9757 839.001
25.0096 617.791
25.0436 384.8253
25.0775 323.931
25.1115 341.381
25.1454 290.163
25.1794 291.703
25.2133 323.395
25.2473 331.575
25.2812 316.251
25.3152 323.808
25.3491 280.369
25.3831 271.287
25.417 277.892
25.451 273.381
25.4849 251.155
25.5188 241.269
25.5528 262.78
25.5867 268.483
25.6207 241.438
25.6546 257.469
25.6886 259.33
25.7225 219.8
25.7565 236.104
25.7904 214.979
25.8244 254.803
25.8583 248.874
25.8923 219.0912
25.9262 231.164
25.9602 216.058
25.9941 227.152
26.02805 224.604
26.062 218.807
26.0959 215.189
26.1299 224.108
26.1638 229.21
26.1978 214.524
26.2317 239.391
26.2657 242.658
26.2996 273.795
26.3336 324.527
26.3675 381.914
26.4015 436.04
26.4354 442.958
26.4694 484.836
26.5033 472.484
26.5373 379.653
26.5712 293.362
26.6051 241.365
26.6391 229.204
26.673 226.82
26.707 216.43
26.7409 236.144
26.7749 238.276
26.8088 256.404
26.8428 257.378
26.8767 233.603
26.9107 227.273
26.9446 247.962
26.9786 227.344
27.0125 214.252
27.0465 231.842
27.0804 207.964
27.11435 190.746
27.1483 196.651
27.1822 209.93
27.2162 228.834
27.2501 216.004
27.2841 236.725
27.318 239.987
27.352 270.657
27.3859 290.828
27.4199 223.265
27.4538 226.857
27.4878 213.869
27.5217 201.992
27.5557 212.755
27.5896 215.843
27.6236 187.259
27.6575 180.166
27.6914 199.028
27.7254 185.584
27.7593 199.438
27.7933 161.945
27.8272 191.145
27.8612 203.268
27.8951 197.14
27.9291 188.77
27.963 211.811
27.997 200.442
28.0309 183.476
28.0649 198.221
28.0988 203.526
28.1328 194.311
28.1667 176.224
28.20065 175.925
28.2346 190.807
28.2685 193.954
28.3025 191.308
28.3364 182.73
28.3704 184.65
28.4043 200.463
28.4383 183.694
28.4722 183.893
28.5062 183.899
28.5401 166.366
28.5741 185.581
28.608 194.423
28.642 182.801
28.6759 211.659
28.7099 202.23
28.7438 211.118
28.7777 250.241
28.8117 389.812
28.8456 398.766
28.8796 406.496
28.9135 370.357
28.9475 260.282
28.9814 224.464
29.0154 221.376
29.0493 199.447
29.0833 224.335
29.1172 214.382
29.1512 229.544
29.1851 244.184
29.2191 287.121
29.253 329.239
29.28695 305.104
29.3209 257.811
29.3548 216.395
29.3888 213.149
29.4227 195.227
29.4567 194.859
29.4906 186.254
29.5246 206.833
29.5585 199.802
29.5925 196.79
29.6264 195.504
29.6604 182.753
29.6943 195.525
29.7283 174.804
29.7622 191.986
29.7962 206.295
29.8301 197.067
29.864 183.281
29.898 183.731
29.9319 196.032
29.9659 186.444
29.9998 184.209
30.0338 202.166
30.0677 220.077
30.1017 247.618
30.1356 279.719
30.1696 305.477
30.2035 375.154
30.2375 357.975
30.2714 355.391
30.3054 277.043
30.3393 244.725
30.37325 228.741
30.4072 217.184
30.4411 222.275
30.4751 219.116
30.509 251.341
30.543 269.551
30.5769 358.943
30.6109 543.073
30.6448 628.984
30.6788 526.359
30.7127 446.642
30.7467 377.993
30.7806 288.604
30.8146 252.009
30.8485 229.54
30.8825 197.679
30.9164 217.988
30.9503 231.495
30.9843 219.787
31.0182 232.74
31.0522 234.971
31.0861 217.762
31.1201 189.28
31.154 202.761
31.188 194.39
31.2219 196.95
31.2559 195.075
31.2898 204.559
31.3238 187.498
31.3577 173.908
31.3917 190.891
31.4256 208.984
31.45955 193.121
31.4935 186.479
31.5274 174.363
31.5614 220.496
31.5953 207.397
31.6293 193.209
31.6632 206.533
31.6972 195.508
31.7311 189.199
31.7651 184.572
31.799 214.486
31.833 227.573
31.8669 211.806
31.9009 195.248
31.9348 207.865
31.9688 204.1019
32.0027 194.163
32.0366 207.51
32.0706 190.719
32.1045 217.449
32.1385 227.605
32.1724 231.819
32.2064 235.977
32.2403 259.471
32.2743 275.856
32.3082 267.839
32.3422 295.877
32.3761 312.31
32.4101 307.162
32.444 266.237
32.478 248.014
32.5119 240.565
32.54585 207.338
32.5798 215.385
32.6137 201.448
32.6477 199.405
32.6816 217.604
32.7156 244.965
32.7495 223.569
32.7835 205.487
32.8174 220.733
32.8514 201.879
32.8853 188.836
32.9193 208.206
32.9532 192.139
32.9872 190.854
33.0211 198.766
33.0551 177.828
33.089 190.692
33.1229 219.778
33.1569 199.15
33.1908 194.213
33.2248 199.243
33.2587 207.735
33.2927 206.335
33.3266 197.69
33.3606 216.615
33.3945 206.452
33.4285 211.399
33.4624 206.347
33.4964 258.114
33.5303 249.977
33.5643 264.629
33.5982 262.377
33.63215 230.054
33.6661 228.694
33.7 208.335
33.734 216.415
33.7679 226.642
33.8019 238.811
33.8358 232.279
33.8698 268.672
33.9037 278.96
33.9377 280.293
33.9716 299.59
34.0056 332.864
34.0395 320.439
34.0735 271.786
34.1074 257.606
34.1414 226.045
34.1753 222.183
34.2092 218.606
34.2432 211.422
34.2771 226.722
34.3111 228.511
34.345 221.39
34.379 230.276
34.4129 227.305
34.4469 198.007
34.4808 220.942
34.5148 204.247
34.5487 192.081
34.5827 200.776
34.6166 201.553
34.6506 195.315
34.6845 200.371
34.71845 216.134
34.7524 195.297
34.7863 190.512
34.8203 207.756
34.8542 192.466
34.8882 190.696
34.9221 221.603
34.9561 197.525
34.99 203.769
35.024 214.827
35.0579 225.358
35.0919 205.199
35.1258 234.16
35.1598 228.696
35.1937 202.909
35.2277 215.337
35.2616 202.309
35.2955 210.48
35.3295 185.257
35.3634 191.756
35.3974 200.574
35.4313 212.892
35.4653 207.526
35.4992 228.478
35.5332 268.592
35.5671 205.091
35.6011 219.826
35.635 223.105
35.669 228.185
35.7029 181.9872
35.7369 211.655
35.7708 185.982
35.80475 191.411
35.8387 194.883
35.8726 170.449
35.9066 213.611
35.9405 208.426
35.9745 186.55
36.0084 188.685
36.0424 204.386
36.0763 180.606
36.1103 182.994
36.1442 186.261
36.1782 191.015
36.2121 162.881
36.2461 181.605
36.28 181.369
36.314 186.963
36.3479 176.732
36.3818 194.643
36.4158 191.581
36.4497 198.674
36.4837 222.907
36.5176 216.602
36.5516 206.179
36.5855 216.686
36.6195 219.348
36.6534 208.761
36.6874 205.284
36.7213 225.997
36.7553 205.441
36.7892 198.859
36.8232 195.728
36.8571 195.677
36.89105 191.615
36.925 214.375
36.9589 223.408
36.9929 239.378
37.0268 260.147
37.0608 268.284
37.0947 267.01
37.1287 224.837
37.1626 212.971
37.1966 199.416
37.2305 187.844
37.2645 183.708
37.2984 205.059
37.3324 195.444
37.3663 179.326
37.4003 167.127
37.4342 185.771
37.4681 176.245
37.5021 191.396
37.536 187.433
37.57 175.79
37.6039 172.6
37.6379 188.157
37.6718 192.821
37.7058 194.483
37.7397 166.795
37.7737 199.468
37.8076 182.259
37.8416 183.77
37.8755 178.774
37.9095 195.15
37.9434 193.974
37.97735 196.0951
38.0113 175.921
38.0452 187.46
38.0792 195.856
38.1131 190.422
38.1471 189.655
38.181 192.757
38.215 200.661
38.2489 190.038
38.2829 186.92
38.3168 194.649
38.3508 201.9079
38.3847 213.214
38.4187 230.622
38.4526 258.877
38.4866 288.565
38.5205 289.26
38.5544 254.664
38.5884 257.321
38.6223 212.362
38.6563 201.161
38.6902 196.111
38.7242 182.087
38.7581 202.548
38.7921 174.566
38.826 176.31
38.86 165.958
38.8939 178.116
38.9279 186.827
38.9618 162.383
38.9958 193.616
39.0297 193.344
39.06365 211.736
39.0976 174.11
39.1315 183.047
39.1655 164.855
39.1994 155.938
39.2334 151.723
39.2673 172.118
39.3013 171.274
39.3352 188.46
39.3692 165.267
39.4031 202.622
39.4371 183.402
39.471 192.481
39.505 199.446
39.5389 198.323
39.5729 186.116
39.6068 196.687
39.6407 176.602
39.6747 152.232
39.7086 167.249
39.7426 192.641
39.7765 173.883
39.8105 189.596
39.8444 160.4
39.8784 153.338
39.9123 170.713
39.9463 182.449
39.9802 181.779
40.0142 180.66
40.0481 156.043
40.0821 173.658
40.116 157.88
40.14995 187.301
40.1839 171.835
40.2178 185.281
40.2518 186.963
40.2857 175.154
40.3197 162.71
40.3536 160.581
40.3876 163.802
40.4215 182.291
40.4555 142.999
40.4894 148.48
40.5234 158.821
40.5573 182.536
40.5913 155.313
40.6252 168.81
40.6592 140.555
40.6931 173.303
40.727 163.075
40.761 182.681
40.7949 176.91
40.8289 154.13
40.8628 174.594
40.8968 155.555
40.9307 185.597
40.9647 151.13
40.9986 157.423
41.0326 155.136
41.0665 160.06
41.1005 160.677
41.1344 194.91
41.1684 147.33
41.2023 168.852
41.23625 139.161
41.2702 165.082
41.3041 160.764
41.3381 165.287
41.372 139.586
41.406 160.572
41.4399 171.863
41.4739 163.531
41.5078 165.461
41.5418 157.125
41.5757 170.995
41.6097 157.481
41.6436 156.927
41.6776 138.322
41.7115 143.023
41.7455 158.595
41.7794 146.116
41.8133 144.202
41.8473 147.871
41.8812 156.606
41.9152 152.004
41.9491 165.611
41.9831 164.995
42.017 173.289
42.051 158.432
42.0849 157.126
42.1189 142.558
42.1528 157.046
42.1868 170.342
42.2207 187.128
42.2547 163.846
42.2886 153.972
42.32255 153.269
42.3565 180.51
42.3904 153.017
42.4244 183.286
42.4583 170.288
42.4923 190.915
42.5262 192.224
42.5602 181.044
42.5941 190.178
42.6281 194.957
42.662 208.299
42.696 185.915
42.7299 177.697
42.7639 167.601
42.7978 193.035
42.8318 171.952
42.8657 157.504
42.8996 162.5
42.9336 176.589
42.9675 145.544
43.0015 179.525
43.0354 163.355
43.0694 157.435
43.1033 157.829
43.1373 158.903
43.1712 161.111
43.2052 172.605
43.2391 141.596
43.2731 138.87
43.307 150.234
43.341 164.826
43.3749 168.874
43.40885 132.454
43.4428 143.495
43.4767 150.39
43.5107 166.35
43.5446 176.739
43.5786 151.3465
43.6125 142.657
43.6465 163.909
43.6804 165.376
43.7144 142.713
43.7483 155.168
43.7823 156.689
43.8162 172.361
43.8502 167.657
43.8841 159.975
43.9181 154.619
43.952 168.413
43.9859 179.307
44.0199 181.738
44.0538 157.004
44.0878 170.474
44.1217 148.537
44.1557 159.069
44.1896 149.827
44.2236 141.163
44.2575 140.514
44.2915 158.621
44.3254 143.531
44.3594 129.245
44.3933 157.242
44.4273 116.94
44.4612 147.608
44.49515 137.261
44.5291 143.766
44.563 144.654
44.597 163.452
44.6309 139.501
44.6649 138.484
44.6988 152.346
44.7328 146.38
44.7667 128.519
44.8007 157.609
44.8346 162.309
44.8686 185.497
44.9025 144.476
44.9365 166.427
44.9704 171.158
45.0044 175.92
45.0383 148.871
45.0722 166.829
45.1062 206.421
45.1401 156.735
45.1741 181.274
45.208 160.684
45.242 136.439
45.2759 135.768
45.3099 150.237
45.3438 161.506
45.3778 140.423
45.4117 135.643
45.4457 140.122
45.4796 149.506
45.5136 157.314
45.5475 138.97
45.58145 143.763
45.6154 132.069
45.6493 192.594
45.6833 143.025
45.7172 152.082
45.7512 127.021
45.7851 174.396
45.8191 134.09
45.853 156.374
45.887 164.237
45.9209 126.488
45.9549 178.188
45.9888 158.573
46.0228 187.153
46.0567 153.367
46.0907 131.212
46.1246 152.474
46.1585 137.049
46.1925 133.07
46.2264 162.32
46.2604 172.345
46.2943 199.114
46.3283 151.412
46.3622 135.823
46.3962 144.934
46.4301 138.124
46.4641 160.645
46.498 172.943
46.532 144.1
46.5659 165.838
46.5999 139.473
46.6338 136.793
46.66775 107.838
46.7017 153.195
46.7356 154.457
46.7696 163.948
46.8035 136.223
46.8375 143.534
46.8714 134.073
46.9054 191.363
46.9393 140.928
46.9733 93.5396
47.0072 116.452
47.0412 131.786
47.0751 116.411
47.1091 132.963
47.143 159.959
47.177 170.319
47.2109 134.348
47.2448 106.088
47.2788 150.201
47.3127 116.04
47.3467 109.158
47.3806 149.365
47.4146 168.3
47.4485 117.796
47.4825 135.188
47.5164 131.89
47.5504 175.183
47.5843 153.816
47.6183 143.723
47.6522 155.211
47.6862 162.469
47.7201 148.83
47.75405 153.381
47.788 192.028
47.8219 137.264
47.8559 115.889
47.8898 138.483
47.9238 141.585
47.9577 150.507
47.9917 174.71
48.0256 180.122
48.0596 110.495
48.0935 100.222
48.1275 160.079
48.1614 108.799
48.1954 153.609
48.2293 160.966
48.2633 101.423
48.2972 142.694
48.3311 110.619
48.3651 121.636
48.399 128.837
48.433 164.503
48.4669 126.4371
48.5009 111.19
48.5348 102.4952
48.5688 133.093
48.6027 125.924
48.6367 160.253
48.6706 173.34
48.7046 137.264
48.7385 156.185
48.7725 153.671
48.8064 195.109
48.84035 176.148
48.8743 154.17
48.9082 124.095
48.9422 136.931
48.9761 137.321
49.0101 136.784
49.044 68.524
49.078 169.727
49.1119 158.358
49.1459 110.917
49.1798 150.235
49.2138 111.025
49.2477 121.81
49.2817 143.279
49.3156 142.994
49.3496 129.865
49.3835 120.805
49.4174 175.159
49.4514 110.928
49.4853 138.91
49.5193 111.184
49.5532 106.914
49.5872 132.74
49.6211 103.422
49.6551 150.236
49.689 118.119
49.723 137.321
49.7569 111.789
49.7909 158.693
49.8248 81.708
49.8588 147.937
49.8927 135.11
49.92665 166.785
49.9606 140.979
49.9945 140.634