File: pyfaults/examples/data/expt_XRD.txt
0.5 879.262
0.506989 895.545
0.513978 946.337
0.520967 976.45
0.527956 952.299
0.534945 978.536
0.541934 1048.6
0.548923 1062.52
0.555913 1039.2
0.562902 1000.88
0.569891 1048.14
0.57688 985.359
0.583869 915.254
0.590858 902.166
0.597847 856.531
0.604836 868.608
0.611825 942.854
0.618814 813.44
0.625803 799.867
0.632792 782.412
0.639781 794.059
0.64677 754.863
0.653759 738.315
0.660748 765.801
0.667738 744.243
0.674727 725.5
0.681716 722.437
0.688705 678.653
0.695694 716.164
0.702683 643.529
0.709672 694.567
0.716661 636.705
0.72365 710.458
0.730639 658.923
0.737628 642.552
0.744617 628.561
0.751606 619.909
0.758595 565.564
0.765584 615.063
0.772573 597.517
0.779562 569.756
0.786552 597.177
0.793541 623.489
0.80053 558.268
0.807519 634.003
0.814508 555.296
0.821497 537.909
0.828486 519.498
0.835475 575.405
0.842464 513.185
0.849453 526.514
0.856442 547.649
0.863431 574.307
0.87042 561.558
0.877409 553.25
0.884398 503.982
0.891387 520.554
0.898377 542.097
0.905366 578.699
0.912355 540.597
0.919344 575.173
0.926333 526.636
0.933322 511.756
0.940311 513.198
0.9473 567.105
0.954289 444.418
0.961278 466.783
0.968267 492.196
0.975256 495.55
0.982245 507.45
0.989234 428.244
0.996223 417.813
1.003213 463.068
1.010202 443.445
1.017191 449.081
1.02418 466.338
1.031169 482.342
1.038158 477.003
1.045147 443.658
1.052136 415.647
1.059125 478.567
1.066114 374.33
1.073103 408.282
1.080092 436.77
1.087081 408.896
1.09407 448.795
1.101059 433.688
1.108048 456.156
1.115037 464.551
1.122027 407.836
1.129016 433.234
1.136005 369.657
1.142994 431.93
1.149983 444.964
1.156972 382.95
1.163961 361.48
1.17095 430.42
1.177939 372.496
1.184928 398.647
1.191917 365.009
1.198906 364.543
1.205895 391.239
1.212884 368.939
1.219873 408.607
1.226862 382.213
1.233852 328.963
1.240841 368.867
1.24783 379.907
1.254819 351.851
1.261808 334.01
1.268797 353.034
1.275786 343.264
1.282775 360.821
1.289764 347.379
1.296753 334.5037
1.303742 353.378
1.310731 331.953
1.31772 326.56
1.324709 341.02
1.331698 311.067
1.338688 307.651
1.345677 351.72
1.352666 316.173
1.359655 284.673
1.366644 276.068
1.373633 411.08
1.380622 330.897
1.387611 302.507
1.3946 305.861
1.401589 345.736
1.408578 320.47
1.415567 360.341
1.422556 357.82
1.429545 364.596
1.436534 321.765
1.443523 349.483
1.450513 307.434
1.457502 283.731
1.464491 305.958
1.47148 267.852
1.478469 303.617
1.485458 315.27
1.492447 336.546
1.499436 302.939
1.506425 312.165
1.513414 306.785
1.520403 328.123
1.527392 368.746
1.534381 298.694
1.54137 293.555
1.548359 311.008
1.555348 275.971
1.562338 303.857
1.569327 306.647
1.576316 296.734
1.583305 329.076
1.590294 299
1.597283 355.519
1.604272 306.406
1.611261 304.063
1.61825 315.379
1.625239 322.812
1.632228 278.566
1.639217 316.44
1.646206 337.576
1.653195 305.644
1.660184 278.375
1.667173 316.175
1.674163 306.493
1.681152 300.359
1.688141 290.345
1.69513 323.407
1.702119 291.283
1.709108 297.794
1.716097 294.959
1.723086 295.449
1.730075 302.627
1.737064 334.183
1.744053 303.117
1.751042 328.825
1.758031 300.85
1.76502 274.743
1.772009 314.596
1.778998 318.13
1.785988 300.464
1.792977 309.837
1.799966 287.744
1.806955 302.986
1.813944 286.658
1.820933 310.865
1.827922 293.003
1.834911 281.461
1.8419 296.419
1.848889 301.663
1.855878 266.943
1.862867 281.833
1.869856 253.453
1.876845 302.767
1.883834 275.313
1.890823 272.388
1.897813 292.502
1.904802 269.239
1.911791 292.779
1.91878 275.649
1.925769 260.972
1.932758 272.069
1.939747 223.526
1.946736 267.796
1.953725 265.782
1.960714 283.947
1.967703 280.414
1.974692 246.618
1.981681 259.69
1.98867 268.348
1.995659 281.735
2.002648 272.203
2.009638 235.068
2.016627 254.419
2.023616 267.374
2.030605 267.893
2.037594 234.595
2.044583 234.334
2.051572 228.602
2.058561 270.419
2.06555 260.447
2.072539 220.084
2.079528 236.035
2.086517 260.464
2.093506 274.41
2.100495 229.521
2.107484 232.155
2.114473 203.149
2.121463 239.959
2.128452 227.001
2.135441 219.031
2.14243 207.034
2.149419 227.974
2.156408 248.62
2.163397 207.309
2.170386 239.574
2.177375 244.153
2.184364 261.394
2.191353 251.659
2.198342 222.146
2.205331 239.523
2.21232 229.535
2.219309 227.675
2.226298 268.464
2.233288 232.38
2.240277 211.148
2.247266 215.884
2.254255 226.877
2.261244 221.164
2.268233 229.117
2.275222 202.701
2.282211 232.271
2.2892 216.895
2.296189 211.861
2.303178 224.352
2.310167 207.461
2.317156 246.96
2.324145 223.148
2.331134 251.911
2.338123 206.489
2.345113 208.123
2.352102 234.615
2.359091 223.992
2.36608 183.901
2.373069 209.44
2.380058 244.822
2.387047 210.774
2.394036 193.534
2.401025 177.842
2.408014 209.301
2.415003 201.75
2.421992 222.249
2.428981 226.536
2.43597 193.582
2.442959 214.032
2.449948 191.649
2.456938 163.455
2.463927 216.517
2.470916 199.419
2.477905 193.734
2.484894 190.247
2.491883 223.729
2.498872 218.681
2.505861 221.473
2.51285 218.429
2.519839 220.467
2.526828 215.917
2.533817 223.97
2.540806 217.322
2.547795 216.8814
2.554784 186.621
2.561773 208.385
2.568763 164.163
2.575752 206.555
2.582741 188.086
2.58973 207.175
2.596719 211.898
2.603708 206.463
2.610697 214.913
2.617686 241.071
2.624675 198.035
2.631664 178.44
2.638653 217.614
2.645642 205.515
2.652631 202.771
2.65962 202.085
2.666609 212.344
2.673598 219.119
2.680588 186.299
2.687577 204.88
2.694566 213.653
2.701555 191.566
2.708544 188.421
2.715533 205.069
2.722522 198.066
2.729511 211.106
2.7365 219.03
2.743489 184.502
2.750478 199.164
2.757467 196.261
2.764456 197.239
2.771445 208.915
2.778434 194.286
2.785423 220.056
2.792413 208.596
2.799402 214.257
2.806391 238.194
2.81338 213.818
2.820369 221.926
2.827358 195.795
2.834347 218.441
2.841336 198.787
2.848325 226.265
2.855314 202.834
2.862303 220.101
2.869292 198.923
2.876281 184.301
2.88327 218.348
2.890259 207.299
2.897248 197.005
2.904238 200.625
2.911227 243.016
2.918216 209.241
2.925205 221.213
2.932194 205.912
2.939183 212.429
2.946172 203.313
2.953161 214.374
2.96015 202.583
2.967139 206.43
2.974128 197.721
2.981117 194.771
2.988106 179.912
2.995095 207.1
3.002084 227.764
3.009073 184.891
3.016063 239.005
3.023052 220.579
3.030041 209.319
3.03703 213.791
3.044019 244.717
3.051008 213.767
3.057997 231.721
3.064986 212.331
3.071975 219.006
3.078964 207.402
3.085953 231.497
3.092942 226.662
3.099931 235.107
3.10692 248.621
3.113909 198.65
3.120898 239.598
3.127888 247.144
3.134877 221.962
3.141866 250.58
3.148855 236.735
3.155844 231.454
3.162833 202.23
3.169822 231.763
3.176811 249.571
3.1838 232.481
3.190789 220.633
3.197778 267.715
3.204767 278.876
3.211756 342.542
3.218745 842.592
3.225734 2183.37
3.232723 535.154
3.239713 313.677
3.246702 268.882
3.253691 225.229
3.26068 239.441
3.267669 225.91
3.274658 218.324
3.281647 226.777
3.288636 230.533
3.295625 216.773
3.302614 225.229
3.309603 223.106
3.316592 189.772
3.323581 195.766
3.33057 196.047
3.337559 192.348
3.344548 204.439
3.351538 210.173
3.358527 190.089
3.365516 210.317
3.372505 200.75
3.379494 202.594
3.386483 203.928
3.393472 181.223
3.400461 211.976
3.40745 184.284
3.414439 185.737
3.421428 206.506
3.428417 254.691
3.435406 213.915
3.442395 237.822
3.449384 182.177
3.456373 224.128
3.463363 241.917
3.470352 246.572
3.477341 204.066
3.48433 245.44
3.491319 246.145
3.498308 214.671
3.505297 195.757
3.512286 205.031
3.519275 221.487
3.526264 212.49
3.533253 225.353
3.540242 195.725
3.547231 223.777
3.55422 232.5
3.561209 220.959
3.568198 230.463
3.575188 226.184
3.582177 207.827
3.589166 229.654
3.596155 224.781
3.603144 222.858
3.610133 204.648
3.617122 230.531
3.624111 226.567
3.6311 247.495
3.638089 260.505
3.645078 234.582
3.652067 186.916
3.659056 213.976
3.666045 241.075
3.673034 243.429
3.680023 225.399
3.687013 225.511
3.694002 211.765
3.700991 233.931
3.70798 202.089
3.714969 267.051
3.721958 221.31
3.728947 247.839
3.735936 243.42
3.742925 215.746
3.749914 237.177
3.756903 217.278
3.763892 202.523
3.770881 245.485
3.77787 221.815
3.784859 205.468
3.791848 231.254
3.798838 196.011
3.805827 187.323
3.812816 228.462
3.819805 224.471
3.826794 254.796
3.833783 234.141
3.840772 249.311
3.847761 256.146
3.85475 236.615
3.861739 247.748
3.868728 263.961
3.875717 284.897
3.882706 252.372
3.889695 246.649
3.896684 260.297
3.903673 212.968
3.910663 246.191
3.917652 232.915
3.924641 271.476
3.93163 237.502
3.938619 226.491
3.945608 238.856
3.952597 250.667
3.959586 259.531
3.966575 233.44
3.973564 226.157
3.980553 241.674
3.987542 259.509
3.994531 260.035
4.00152 255.67
4.008509 277.537
4.015498 262.205
4.022488 279.553
4.029477 254.075
4.036466 247.025
4.043455 247.099
4.050444 267.812
4.057433 254.879
4.064422 247.72
4.071411 268.953
4.0784 267.893
4.085389 231.455
4.092378 252.905
4.099367 283.048
4.106356 269.286
4.113345 267.3
4.120334 255.67
4.127323 282.193
4.134313 300.039
4.141302 292.312
4.148291 262.346
4.15528 287.988
4.162269 270.168
4.169258 248.667
4.176247 274.525
4.183236 285.575
4.190225 267.057
4.197214 265.909
4.204203 280.625
4.211192 281.035
4.218181 285.293
4.22517 285.991
4.232159 292.556
4.239148 312.115
4.246138 277.52
4.253127 303.837
4.260116 303.945
4.267105 303.341
4.274094 328.552
4.281083 298.024
4.288072 296.819
4.295061 327.952
4.30205 319.945
4.309039 347.005
4.316028 366.408
4.323017 418.065
4.330006 409.156
4.336995 410.25
4.343984 446.688
4.350973 609.916
4.357963 674.87
4.364952 1077.06
4.371941 2112.33
4.37893 9876.95
4.385919 13665.2
4.392908 2703.38
4.399897 1294.9
4.406886 763.09
4.413875 583.094
4.420864 513.174
4.427853 430.692
4.434842 397.9
4.441831 360.936
4.44882 388.123
4.455809 377.578
4.462798 345.043
4.469788 357.541
4.476777 342.717
4.483766 355.978
4.490755 322.601
4.497744 320.564
4.504733 346.545
4.511722 307.369
4.518711 323.908
4.5257 317.7949
4.532689 340.125
4.539678 297.236
4.546667 302.116
4.553656 337.347
4.560645 332.524
4.567634 328.397
4.574623 330.766
4.581613 325.392
4.588602 324.312
4.595591 297.547
4.60258 320.971
4.609569 352.152
4.616558 340.088
4.623547 366.66
4.630536 332.247
4.637525 344.251
4.644514 335.988
4.651503 365.436
4.658492 344.305
4.665481 342.584
4.67247 367.75
4.679459 362.879
4.686448 320.402
4.693438 384.281
4.700427 349.66
4.707416 387.751
4.714405 402.237
4.721394 398.825
4.728383 445.052
4.735372 519.179
4.742361 632.282
4.74935 927.275
4.756339 1622.64
4.763328 2952.93
4.770317 3910.67
4.777306 2011.99
4.784295 1554.72
4.791284 1338.5
4.798273 1186.57
4.805263 990.934
4.812252 975.034
4.819241 915.25
4.82623 884.017
4.833219 877.725
4.840208 825.437
4.847197 851.638
4.854186 825.491
4.861175 804.747
4.868164 854.602
4.875153 797.257
4.882142 779.971
4.889131 811.493
4.89612 819.673
4.903109 811.892
4.910098 797.514
4.917088 790.195
4.924077 829.608
4.931066 837.542
4.938055 808.478
4.945044 860.727
4.952033 924.114
4.959022 926.994
4.966011 1068.34
4.973 1378.98
4.979989 1707.86
4.986978 1591.96
4.993967 1332.58
5.000956 1087.38
5.007945 931.965
5.014934 851.559
5.021923 757.433
5.028913 741.299
5.035902 709.072
5.042891 744.301
5.04988 699.598
5.056869 686.643
5.063858 687.643
5.070847 634.249
5.077836 626.098
5.084825 617.141
5.091814 644.833
5.098803 615.153
5.105792 619.991
5.112781 617.389
5.11977 571.338
5.126759 615.998
5.133748 626.452
5.140738 603.397
5.147727 522.845
5.154716 602.427
5.161705 597.428
5.168694 605.225
5.175683 592.136
5.182672 536.983
5.189661 551.98
5.19665 553.024
5.203639 561.088
5.210628 553.264
5.217617 549.511
5.224606 549.324
5.231595 522.458
5.238584 568.101
5.245573 617.636
5.252563 556.129
5.259552 557.392
5.266541 538.209
5.27353 538.791
5.280519 574.679
5.287508 517.305
5.294497 501.001
5.301486 537.476
5.308475 522.316
5.315464 566.755
5.322453 556.773
5.329442 569.86
5.336431 562.062
5.34342 545.47
5.350409 595.054
5.357398 503.527
5.364388 574.122
5.371377 499.222
5.378366 579.455
5.385355 572.527
5.392344 560.969
5.399333 546.218
5.406322 593.886
5.413311 565.809
5.4203 583.331
5.427289 563.394
5.434278 559.456
5.441267 580.7
5.448256 580.284
5.455245 590.387
5.462234 591.294
5.469223 574.819
5.476213 622.713
5.483202 623.456
5.490191 664.606
5.49718 628.221
5.504169 665.112
5.511158 701.77
5.518147 688.78
5.525136 741.338
5.532125 818.344
5.539114 894.262
5.546103 1013.01
5.553092 1159.87
5.560081 1365.26
5.56707 1212.82
5.574059 962.686
5.581048 837.94
5.588038 796.877
5.595027 748.698
5.602016 665.433
5.609005 672.694
5.615994 599.237
5.622983 601.941
5.629972 605.133
5.636961 575.116
5.64395 610.75
5.650939 585.647
5.657928 568.344
5.664917 617.038
5.671906 584.628
5.678895 546.077
5.685884 558.797
5.692873 574.766
5.699863 546.556
5.706852 579.547
5.713841 513.24
5.72083 554.382
5.727819 554.408
5.734808 568.927
5.741797 552.386
5.748786 547.258
5.755775 574.075
5.762764 541.805
5.769753 541.387
5.776742 574.812
5.783731 587.389
5.79072 526.89
5.797709 519.42
5.804698 529.184
5.811688 527.387
5.818677 519.154
5.825666 539.553
5.832655 524.754
5.839644 543.418
5.846633 504.622
5.853622 518.131
5.860611 571.074
5.8676 547.211
5.874589 543.086
5.881578 536.769
5.888567 511.789
5.895556 529.438
5.902545 564.907
5.909534 532.427
5.916523 544.255
5.923513 531.342
5.930502 522.302
5.937491 555.084
5.94448 520.688
5.951469 528.972
5.958458 521.694
5.965447 488.816
5.972436 535.43
5.979425 480.249
5.986414 527.718
5.993403 525.05
6.000392 525.334
6.007381 555.88
6.01437 552.866
6.021359 527.248
6.028348 495.321
6.035338 565.568
6.042327 546.332
6.049316 557.711
6.056305 528.497
6.063294 562.737
6.070283 568.001
6.077272 536.851
6.084261 547.932
6.09125 562.103
6.098239 506.601
6.105228 507.72
6.112217 535.0439
6.119206 520.913
6.126195 522.671
6.133184 542.483
6.140173 497.723
6.147163 525.107
6.154152 514.236
6.161141 569.994
6.16813 523.962
6.175119 536.809
6.182108 484.129
6.189097 575.492
6.196086 554.538
6.203075 540.704
6.210064 515.898
6.217053 573.188
6.224042 537.455
6.231031 556.257
6.23802 549.378
6.245009 525.878
6.251998 531.123
6.258988 555.973
6.265977 561.502
6.272966 516.467
6.279955 556.643
6.286944 532.588
6.293933 554.076
6.300922 565.029
6.307911 528.108
6.3149 507.852
6.321889 577.588
6.328878 525.328
6.335867 493.289
6.342856 558.216
6.349845 522.107
6.356834 558.696
6.363823 563.936
6.370813 570.832
6.377802 540.3615
6.384791 552.352
6.39178 599.301
6.398769 594.492
6.405758 560.06
6.412747 594.616
6.419736 625.662
6.426725 596.253
6.433714 617.485
6.440703 638.187
6.447692 696.831
6.454681 739.498
6.46167 815.034
6.468659 918.14
6.475648 1165.67
6.482638 1126.15
6.489627 970.321
6.496616 867.467
6.503605 787.511
6.510594 715.144
6.517583 669.513
6.524572 595.359
6.531561 531.586
6.53855 560.096
6.545539 555.957
6.552528 535.939
6.559517 552.352
6.566506 556.433
6.573495 526.329
6.580484 511.363
6.587473 474.739
6.594463 526.017
6.601452 519.133
6.608441 524.61
6.61543 503.951
6.622419 543.596
6.629408 492.597
6.636397 527.539
6.643386 511.565
6.650375 479.716
6.657364 501.972
6.664353 491.291
6.671342 465.762
6.678331 484.738
6.68532 516.397
6.692309 485.831
6.699298 454.599
6.706288 486.189
6.713277 478.161
6.720266 497.064
6.727255 501.993
6.734244 496.145
6.741233 479.653
6.748222 514.977
6.755211 505.503
6.7622 481.014
6.769189 501.648
6.776178 481.196
6.783167 463.209
6.790156 441.329
6.797145 473.505
6.804134 471.221
6.811123 455.039
6.818113 468.642
6.825102 476.769
6.832091 440.797
6.83908 444.009
6.846069 458.481
6.853058 443.515
6.860047 469.721
6.867036 437.062
6.874025 470.58
6.881014 450.647
6.888003 485.697
6.894992 447.088
6.901981 454.005
6.90897 425.33
6.915959 455.696
6.922948 427.195
6.929938 434.992
6.936927 432.159
6.943916 444.522
6.950905 442.543
6.957894 433.309
6.964883 445.784
6.971872 439.45
6.978861 438.037
6.98585 440.58
6.992839 430.492
6.999828 385.691
7.006817 421.664
7.013806 396.519
7.020795 457.935
7.027784 409.5974
7.034773 430.517
7.041763 445.956
7.048752 409.775
7.055741 441.267
7.06273 424.168
7.069719 449.673
7.076708 425.992
7.083697 424.56
7.090686 438.826
7.097675 448.113
7.104664 398.305
7.111653 415.49
7.118642 421.442
7.125631 420.781
7.13262 398.261
7.139609 394.907
7.146598 420.455
7.153588 407.797
7.160577 424.082
7.167566 433.035
7.174555 397.07
7.181544 434.404
7.188533 384.084
7.195522 415.888
7.202511 394.209
7.2095 402.922
7.216489 416.466
7.223478 407.899
7.230467 383.049
7.237456 400.386
7.244445 397.953
7.251434 412.434
7.258423 418.369
7.265413 394.557
7.272402 378.0749
7.279391 376.833
7.28638 416.898
7.293369 395.842
7.300358 400.443
7.307347 394.88
7.314336 361.028
7.321325 381.223
7.328314 394.431
7.335303 415.038
7.342292 429.106
7.349281 408.631
7.35627 418.654
7.363259 422.237
7.370248 462.994
7.377238 543.308
7.384227 901.393
7.391216 1368.62
7.398205 696.215
7.405194 484.541
7.412183 425.591
7.419172 408.415
7.426161 406.757
7.43315 397.043
7.440139 424.064
7.447128 395.651
7.454117 381.886
7.461106 408.475
7.468095 401.324
7.475084 392.465
7.482073 398.654
7.489063 380.434
7.496052 385.556
7.503041 388.492
7.51003 382.377
7.517019 409.104
7.524008 395.337
7.530997 421.033
7.537986 431.883
7.544975 456.661
7.551964 443.327
7.558953 469.188
7.565942 429.172
7.572931 445.154
7.57992 432.309
7.586909 421.996
7.593898 457.264
7.600888 433.552
7.607877 393.624
7.614866 394.202
7.621855 356.903
7.628844 388.476
7.635833 363.856
7.642822 346.8
7.649811 375.994
7.6568 359.471
7.663789 363.799
7.670778 358.35
7.677767 346.03
7.684756 364.867
7.691745 378.105
7.698734 336.925
7.705723 312.494
7.712713 364.54
7.719702 353.334
7.726691 384.324
7.73368 320.1
7.740669 354.317
7.747658 362.489
7.754647 346.825
7.761636 350.401
7.768625 349.577
7.775614 343.959
7.782603 344.75
7.789592 322.906
7.796581 302.377
7.80357 321.083
7.810559 320.873
7.817548 342.021
7.824538 365.132
7.831527 333.457
7.838516 314.715
7.845505 338.316
7.852494 339.147
7.859483 322.4015
7.866472 331.041
7.873461 319.771
7.88045 339.727
7.887439 332.788
7.894428 343.591
7.901417 319.102
7.908406 368.896
7.915395 310.581
7.922384 328.281
7.929373 335.054
7.936363 355.423
7.943352 321.272
7.950341 334.681
7.95733 313.795
7.964319 306.624
7.971308 308.187
7.978297 318.29
7.985286 306.137
7.992275 345.02
7.999264 296.558
8.006253 335.176
8.013242 329.596
8.020231 342.215
8.02722 314.097
8.034209 297.743
8.041198 318.625
8.048188 307.864
8.055177 335.761
8.062166 298.866
8.069155 314.819
8.076144 327.345
8.083133 316.406
8.090122 321.698
8.097111 291.759
8.1041 330.814
8.111089 308.425
8.118078 270.679
8.125067 349.425
8.132056 322.498
8.139045 353.754
8.146034 320.909
8.153023 298.206
8.160013 300.077
8.167002 316.116
8.173991 316.816
8.18098 317.778
8.187969 291.225
8.194958 326.242
8.201947 329.091
8.208936 292.4411
8.215925 340.013
8.222914 314.925
8.229903 321.698
8.236892 339.522
8.243881 291.477
8.25087 325.689
8.257859 319.612
8.264848 331.014
8.271838 339.216
8.278827 319.034
8.285816 331.128
8.292805 310.118
8.299794 321.778
8.306783 379.9
8.313772 366.894
8.320761 401.627
8.32775 434.537
8.334739 467.498
8.341728 617.091
8.348717 754.64
8.355706 823.255
8.362695 953.414
8.369684 1165.68
8.376673 1331.26
8.383663 1360.78
8.390652 1191.09
8.397641 792.41
8.40463 631.048
8.411619 583.486
8.418608 510.742
8.425597 469.915
8.432586 472.101
8.439575 482.352
8.446564 535.577
8.453553 448.922
8.460542 397.452
8.467531 367.892
8.47452 353.768
8.481509 348.837
8.488498 355.891
8.495488 339.78
8.502477 321.119
8.509466 351.104
8.516455 374.831
8.523444 323.19
8.530433 362.92
8.537422 317.592
8.544411 331.295
8.5514 342.351
8.558389 337.622
8.565378 364.998
8.572367 373.791
8.579356 381.379
8.586345 381.604
8.593334 385.531
8.600323 435.413
8.607313 377.271
8.614302 438.009
8.621291 413.349
8.62828 420.16
8.635269 476.756
8.642258 500.716
8.649247 509.402
8.656236 538.468
8.663225 559.308
8.670214 659.244
8.677203 713.464
8.684192 783.924
8.691181 914.342
8.69817 1096.4
8.705159 1285.18
8.712148 1753.9
8.719138 2432.05
8.726127 3605.07
8.733116 6259.65
8.740105 12947.2
8.747094 25880.3
8.754083 21168
8.761072 11883
8.768061 13330.649
8.77505 14427.8
8.782039 5874.31
8.789028 3126.65
8.796017 2259.71
8.803006 1704.42
8.809995 1365.23
8.816984 1171.89
8.823973 1047.12
8.830963 1068.85
8.837952 1222.03
8.844941 1565.25
8.85193 2112.72
8.858919 2355.49
8.865908 1967.28
8.872897 1438.84
8.879886 991.766
8.886875 766.702
8.893864 599.0569
8.900853 492.235
8.907842 478.718
8.914831 464.874
8.92182 406.989
8.928809 373.385
8.935798 359.609
8.942788 344.314
8.949777 367.183
8.956766 334.699
8.963755 314.692
8.970744 323.377
8.977733 338.445
8.984722 355.521
8.991711 378.166
8.9987 384.028
9.005689 315.98
9.012678 331.511
9.019667 320.556
9.026656 303.723
9.033645 310.741
9.040634 271.41
9.047623 304.032
9.054613 304.645
9.061602 265.29
9.068591 273.016
9.07558 288.395
9.082569 289.706
9.089558 278.739
9.096547 270.856
9.103536 278.149
9.110525 279.659
9.117514 277.604
9.124503 275.724
9.131492 300.376
9.138481 264.029
9.14547 287.408
9.152459 264.1804
9.159448 277.369
9.166438 266.127
9.173427 266.731
9.180416 272.559
9.187405 248.266
9.194394 274.3
9.201383 254.204
9.208372 248.357
9.215361 274.338
9.22235 284.292
9.229339 255.119
9.236328 265.973
9.243317 237.036
9.250306 288.987
9.257295 281.931
9.264284 271.897
9.271273 277.479
9.278263 273.321
9.285252 280.633
9.292241 272.805
9.29923 273.922
9.306219 244.358
9.313208 264.005
9.320197 282.492
9.327186 275.441
9.334175 269.283
9.341164 284.567
9.348153 267.036
9.355142 273.47
9.362131 279.998
9.36912 275.054
9.376109 260.35
9.383098 247.64
9.390088 252.288
9.397077 265.694
9.404066 266.101
9.411055 254.991
9.418044 271.781
9.425033 261.001
9.432022 248.833
9.439011 272.21
9.446 276.741
9.452989 251.026
9.459978 267.241
9.466967 248.048
9.473956 252.096
9.480945 276.482
9.487934 275.038
9.494923 278.914
9.501913 266.939
9.508902 284.855
9.515891 307.096
9.52288 267.751
9.529869 309.182
9.536858 329.403
9.543847 373.78
9.550836 346.181
9.557825 278.09
9.564814 318.33
9.571803 299.4199
9.578792 286.993
9.585781 314.073
9.59277 307.885
9.599759 321.812
9.606748 302.657
9.613738 296.399
9.620727 271.392
9.627716 296.41
9.634705 279.694
9.641694 305.221
9.648683 285.55
9.655672 284.806
9.662661 301.994
9.66965 300.318
9.676639 312.005
9.683628 331.904
9.690617 333.065
9.697606 296.382
9.704595 291.048
9.711584 305.885
9.718573 319.357
9.725563 309.042
9.732552 298.219
9.739541 301.209
9.74653 280.163
9.753519 308.486
9.760508 303.912
9.767497 337.59
9.774486 286.936
9.781475 296.99
9.788464 329.415
9.795453 309.449
9.802442 339.201
9.809431 320.564
9.81642 314.81
9.823409 318.06
9.830398 338.809
9.837388 356.012
9.844377 336.221
9.851366 336.95
9.858355 359.937
9.865344 348.742
9.872333 342.102
9.879322 365.638
9.886311 344.556
9.8933 393.93
9.900289 390.887
9.907278 412.408
9.914267 467.534
9.921256 451.69
9.928245 470.89
9.935234 493.196
9.942223 555.181
9.949213 581.99
9.956202 715.686
9.963191 1002.67
9.97018 1547.14
9.977169 1037.06
9.984158 977.135
9.991147 975.163
9.998136 1047.11
9.999134 1079.51